__________ Blue Period paintings reflect this influence as well as his choice of subject matter, usually victims of society and outcasts.
MS - 222 is commonly used to euthanize which species of laboratory animal?
_____ can be defined as the amount of time top management must devote to monitoring and evaluating subunits' performance.
Which of the following statements is true about the image below?
The most predominant  intracellular _________ is _________.
The nurse has instructed a patient about thoracentesis. The nurse determines that the client understands the instructions when she says: a. "Fluid will be aspirated from the pleural cavity using a syringe and needle."b. "I will probably need to have general anesthetic."c. "I'll be transferred to the operating room for the procedure."d. "No more than 500 mL of fluid will be removed."
Which two illustrators use shadows in their illustrations to create tone, mood, and to intensify the theme?
Your 62-year-old patient is diagnosed with pneumonia. He has a history of type 2 diabetes and COPD.  Which of the following is not recommended as initial outpatient therapy for this patient?
Gustatory cells are found in __________, which are located in ________, and use the Facial and ___________ nerves.
Match these cybersecurity terms with their definitions.
Look at Text 2: Which SENTENCE outlines the reasons why WhatsApp is the preferred social media platform for refugees? (Write a number)
Male or Female pelvis?
Rewrite the syllogism in standard form and name its mood and figure. You may abbreviate as long as I know what the abbreviations are. No sports cars are vehicles intended to be driven at moderate speeds, but all automobiles designed for family use are vehicles intended to be driven at moderate speeds, from which it follows that no sports cars are automobiles designed for family use.
Nursing assistants can help a resident's family and friends deal with the resident's death by:
With a heart rate of 60 bpm, the time (in seconds) for one complete cardiac cycle (1 beat) would be:
The greatest threat to an organization's information systems come from
According to "Arranging a Marriage in India" a benefit to an arranged marriage is
An authorization for release of health information under HIPAA is not valid unless it contains a statement informing a patient that his or her health information could be disclosed by the persons to whom the information is being provided.
Which of the following is the IUPAC name for the compound below?
A 48-year-old patient has just been orally intubated prior to being placed on volume-controlled ventilation. The respiratory therapist should do which of the following to best confirm proper placement of the endotracheal tube?
