Pine, Inc. operates abroad through four foreign subsidiary corporations which do business in four different foreign countries (see table below). During 20Y5, these foreign subsidiaries reported the following amounts of pre-tax book income and foreign income tax expense:   During 20Y5, Pine Inc. (the U.S. parent) reported pre-tax book income of $6 million, which is subject only to U.S. federal income tax. Pine and its four subsidiaries do not engage in any intercompany transactions. Consequently, the Pine consolidated group's total pre-tax book income was $10 million in 20Y5. In the group's 20Y5 book effective tax rate reconciliation, what is the effect (expressed in percentage points) of the reconciling item "Foreign earnings taxed at different rates"? Round to two decimal points and do not enter a percent sign (e.g., 12.34). Be sure to report the effect of the reconciling item, not the overall effective tax rate.
The nurse is providing care to a patient recovering from a bilateral adrenalectomy. What should the nurse do to assess for the onset of adrenal insufficiency?
What gas was produced in your fermentation experiment?
In which of the following ways are the writings of Smith and Bradford similar?
Solve the exponential equation for t. Round your answer to three decimal places if necessary.e-0.05t = 0.6
TCRs can be:
When two tables have a many-to-many relationship, create a(n) ______________ to relate them.
An income statement includes:
The maximum amount of cholesterol recommended in a 2500 kcal diet is
Describe the difference between a hot air balloon and a dirigible.  Be specific and list at least three major differences.
The Constitution grants _____ enumerated powers to the legislative branch?
Which of these is a controversial unusual sanction?
Refer to the diagram on the right, what does "2" represent?
The following sequence logo represents the preferred cis-regulatory sequences of an imaginary transcription regulator that functions as a dimer. Would you expect this sequence to be recognized by a homodimer or a heterodimer?
Write the negation of the compound statement.Cats are lazy and dogs are not friendly.
In almost all cases, the margin of sample error of a random sample is ________ the size of the population.
What was the purpose of the mummy to the Egyptians?
Which of the following is true regarding carbon dioxide?
Une laverie
You are performing an experiment in the lab. You begin with a strong acid solution. Then, you add a buffer to the solution. The buffer has not reached its saturation point when added to the solution. Which of the following is most likely the pH of the solution after the buffer is added? (Learning Objective 25, page 6)
